[
    {
      "stimuli": [
        "data/cven_00_02286_84473_617520.wav",
        "data/cven_03_26059_84473_17388318.wav",
        "data/cven_05_14026_84473_17255724.wav",
        "data/cven_06_31405_84473_97708.wav"
      ],
      "ratings": [
        0.5803783162300319,
        0.6230631528014677,
        0.9574386702885513,
        0.10222569874393961
      ],
      "elapsed": [
        0.26759259259259255,
        0.20307692307692307,
        0.18888888888888888,
        0.2778761061946903
      ],
      "rt": 2668,
      "ratingtype": "features",
      "labels": [
        "Feature 1"
      ],
      "trial_type": "audio-tokens",
      "trial_index": 0,
      "time_elapsed": 3848,
      "internal_node_id": "0.0-0.0"
    },
    {
      "stimuli": [
        "data/cven_00_02286_84473_617520.wav",
        "data/cven_03_26059_84473_17388318.wav",
        "data/cven_05_14026_84473_17255724.wav",
        "data/cven_06_31405_84473_97708.wav"
      ],
      "ratings": [
        [
          0.8666726262685042,
          0.9816046752452661,
          0.1839019107867247
        ],
        [
          0.030335441432877364,
          0.710121468656714,
          0.015445235979208438
        ],
        [
          0.6424347482017799,
          0.8553972968875367,
          0.8302608464076425
        ],
        [
          0.9156014687167654,
          0.8864551408871013,
          0.8288817129579948
        ]
      ],
      "elapsed": [
        0.9416666666666668,
        0.7807692307692307,
        0.6325925925925926,
        0.7035398230088497
      ],
      "rt": 6024,
      "ratingtype": "features",
      "labels": [
        "Feature 1",
        "Feature 2",
        "Feature 3"
      ],
      "trial_type": "audio-tokens",
      "trial_index": 1,
      "time_elapsed": 10641,
      "internal_node_id": "0.0-1.0"
    },
    {
      "stimuli": [
        "data/cven_00_02286_84473_617520.wav",
        "data/cven_03_26059_84473_17388318.wav",
        "data/cven_05_14026_84473_17255724.wav",
        "data/cven_06_31405_84473_97708.wav",
        "data/cven_07_27838_84473_566483.wav",
        "data/cven_08_19497_84473_17246733.wav",
        "data/cven_09_26764_84473_17637624.wav",
        "data/cven_10_19680_84473_665433.wav",
        "data/cven_17_17551_84473_512103.wav"
      ],
      "ratings": [
        [
          0.03631890033688889,
          0.5217651131909564
        ],
        [
          0.5694705727097696,
          0.09744539091327187
        ],
        [
          0.6775501988992211,
          0.709328856908832
        ],
        [
          0.7768097877252067,
          0.07389156788856621
        ],
        [
          0.4279644118663898,
          0.6210122681801491
        ],
        [
          0.27271085186345734,
          0.309063644163052
        ],
        [
          0.6834700966172538,
          0.46177898745321977
        ],
        [
          0.772064653933612,
          0.4211234130683258
        ],
        [
          0.5101688725492227,
          0.03594759556842342
        ]
      ],
      "elapsed": [
        0.5037037037037037,
        0.4115384615384616,
        0.19555555555555554,
        0.2548672566371682,
        0.6357142857142857,
        0.1898809523809524,
        0.508411214953271,
        0.45605700712589076,
        0.4579710144927537
      ],
      "rt": 6775,
      "ratingtype": "features2d",
      "labels": [
        "Feature 1",
        "Feature 2"
      ],
      "trial_type": "audio-tokens",
      "trial_index": 2,
      "time_elapsed": 18031,
      "internal_node_id": "0.0-2.0"
    },
    {
      "stimuli": [
        "data/cven_00_02286_84473_617520.wav",
        "data/cven_03_26059_84473_17388318.wav",
        "data/cven_05_14026_84473_17255724.wav",
        "data/cven_06_31405_84473_97708.wav",
        "data/cven_07_27838_84473_566483.wav",
        "data/cven_08_19497_84473_17246733.wav",
        "data/cven_09_26764_84473_17637624.wav",
        "data/cven_10_19680_84473_665433.wav",
        "data/cven_17_17551_84473_512103.wav"
      ],
      "ratings": [
        1,
        1,
        0,
        1,
        1,
        0,
        1,
        1,
        0
      ],
      "elapsed": [
        0.6064814814814815,
        0.4446153846153846,
        0.5103703703703704,
        0.43982300884955755,
        0.4489795918367347,
        0.2619047619047619,
        0.4532710280373831,
        0.7149643705463183,
        0.3536231884057971
      ],
      "rt": 7469,
      "ratingtype": "categories",
      "labels": [
        "Category 1",
        "Category 2"
      ],
      "trial_type": "audio-tokens",
      "trial_index": 3,
      "time_elapsed": 26197,
      "internal_node_id": "0.0-3.0"
    },
    {
      "stimuli": [
        "data/cven_00_02286_84473_617520.wav",
        "data/cven_03_26059_84473_17388318.wav",
        "data/cven_05_14026_84473_17255724.wav",
        "data/cven_06_31405_84473_97708.wav",
        "data/cven_07_27838_84473_566483.wav",
        "data/cven_08_19497_84473_17246733.wav",
        "data/cven_09_26764_84473_17637624.wav",
        "data/cven_10_19680_84473_665433.wav",
        "data/cven_17_17551_84473_512103.wav"
      ],
      "ratings": [
        1,
        0,
        1,
        0,
        0,
        1,
        1,
        0,
        0
      ],
      "elapsed": [
        0.45185185185185184,
        0.7576923076923077,
        0.6503703703703704,
        0.7778761061946904,
        0.6775510204081633,
        0.30892857142857144,
        0.8532710280373832,
        0.8907363420427554,
        0.4456521739130435
      ],
      "rt": 11250,
      "ratingtype": "cluster",
      "labels": [
        ""
      ],
      "trial_type": "audio-tokens",
      "trial_index": 4,
      "time_elapsed": 39126,
      "internal_node_id": "0.0-4.0"
    },
    {
      "stimuli": [
        "data/cven_00_02286_84473_617520.wav",
        "data/cven_03_26059_84473_17388318.wav",
        "data/cven_05_14026_84473_17255724.wav",
        "data/cven_06_31405_84473_97708.wav",
        "data/cven_07_27838_84473_566483.wav",
        "data/cven_08_19497_84473_17246733.wav",
        "data/cven_09_26764_84473_17637624.wav",
        "data/cven_10_19680_84473_665433.wav",
        "data/cven_17_17551_84473_512103.wav"
      ],
      "ratings": [
        [
          0.7042160675780768,
          0.005728843999172728
        ],
        [
          0.17854324772916708,
          0.905260492420605
        ],
        [
          0.7589064165748244,
          0.05446645256261928
        ],
        [
          0.6786053729879833,
          0.4710761792235605
        ],
        [
          0.03052136532911809,
          0.6473000991021927
        ],
        [
          0.4082084951859435,
          0.6711119900780785
        ],
        [
          0.6318882606842188,
          0.42903883044652913
        ],
        [
          0.8078164869809773,
          0.789059400537866
        ],
        [
          0.5480647357255795,
          0.30573606579305046
        ]
      ],
      "elapsed": [
        0.40648148148148144,
        0.3446153846153846,
        0.30740740740740735,
        0.3761061946902655,
        0.9816326530612245,
        0.3755952380952381,
        0.5327102803738317,
        0.5878859857482186,
        0.341304347826087
      ],
      "rt": 9662,
      "ratingtype": "similarity",
      "labels": "",
      "trial_type": "audio-tokens",
      "trial_index": 5,
      "time_elapsed": 49557,
      "internal_node_id": "0.0-5.0"
    },
    {
      "stimuli": [
        "data/cven_00_02286_84473_617520.wav",
        "data/cven_03_26059_84473_17388318.wav",
        "data/cven_05_14026_84473_17255724.wav",
        "data/cven_06_31405_84473_97708.wav",
        "data/cven_07_27838_84473_566483.wav",
        "data/cven_08_19497_84473_17246733.wav",
        "data/cven_09_26764_84473_17637624.wav",
        "data/cven_10_19680_84473_665433.wav",
        "data/cven_17_17551_84473_512103.wav"
      ],
      "ratings": [
        914,
        1314,
        2372,
        1826,
        3106,
        3546,
        null,
        3962,
        null
      ],
      "elapsed": [
        0.4555555555555555,
        0.20461538461538462,
        0.21037037037037035,
        0.34955752212389385,
        0.5234693877551021,
        0.13392857142857142,
        0,
        0,
        0
      ],
      "rt": 3963,
      "ratingtype": "triplet",
      "labels": [
        ""
      ],
      "trial_type": "audio-tokens",
      "trial_index": 6,
      "time_elapsed": 54286,
      "internal_node_id": "0.0-6.0"
    }
  ]